Folder: Battery_dqdv_tools/output

File: charge_discharge.csv
,|Q|[Ah](charge),Voltage[V](charge),Capacity[mAh/g](charge),|Q|[Ah](discharge),Voltage[V](discharge),Capacity[mAh/g](discharge)
0,6.207199e-08,3.34958,0.0180547,5.730693e-07,4.2888,0.166687
8,3.69955e-06,3.54314,1.07608,5.15761e-06,4.27351,1.50018
16,8.28341e-06,3.55461,2.40937,9.74213e-06,4.2622,2.83366
24,1.286726e-05,3.56057,3.74266,1.432664e-05,4.25241,4.16714
32,1.74511e-05,3.56531,5.07595,1.891116e-05,4.24446,5.50063
40,2.203495e-05,3.56898,6.40924,2.349568e-05,4.23697,6.83411
48,2.66188e-05,3.57235,7.74252,2.80802e-05,4.2304,8.1676
56,3.120266e-05,3.5754,9.07582,3.266472e-05,4.22505,9.50108
64,3.578651e-05,3.57846,10.4091,3.724923e-05,4.2197,10.8346
72,4.037036e-05,3.58106,11.7424,4.183376e-05,4.21511,12.1681
80,4.495422e-05,3.58412,13.0757,4.641829e-05,4.21129,13.5015
88,4.953807e-05,3.58657,14.409,5.10028e-05,4.20792,14.835
96,5.412194e-05,3.58916,15.7423,5.558732e-05,4.20441,16.1685
104,5.870579e-05,3.59207,17.0756,6.017184e-05,4.20135,17.502
112,6.328964e-05,3.59452,18.4089,6.475638e-05,4.19875,18.8355
120,6.78735e-05,3.59727,19.7421,6.93409e-05,4.19615,20.169
128,7.245735e-05,3.60017,21.0754,7.392544e-05,4.19355,21.5025
136,7.704119e-05,3.60262,22.4087,7.850995e-05,4.19126,22.8359
144,8.162502e-05,3.60537,23.742,8.309448e-05,4.18881,24.1694
152,8.620886e-05,3.60828,25.0753,8.767899e-05,4.18637,25.5029
160,9.07927e-05,3.61133,26.4086,9.226352e-05,4.18377,26.8364
168,9.537655e-05,3.61424,27.7419,9.684804e-05,4.18117,28.1699
176,9.996038e-05,3.61745,29.0752,0.000101433,4.17841,29.5034
184,0.000104544,3.62081,30.4084,0.000106017,4.17536,30.8368
192,0.000109128,3.62387,31.7417,0.000110602,4.17184,32.1703
200,0.000113712,3.62754,33.075,0.000115186,4.16832,33.5038
208,0.000118296,3.63106,34.4083,0.000119771,4.16343,34.8373
216,0.00012288,3.63473,35.7416,0.000124355,4.15884,36.1708
224,0.000127463,3.6384,37.0749,0.00012894,4.15334,37.5043
232,0.000132047,3.64207,38.4082,0.000133524,4.14738,38.8378
240,0.000136631,3.64589,39.7414,0.000138109,4.14096,40.1712
248,0.000141215,3.64956,41.0747,0.000142693,4.13408,41.5047
256,0.000145799,3.65384,42.408,0.000147278,4.12689,42.8382
264,0.000150383,3.65766,43.7413,0.000151862,4.1197,44.1717
272,0.000154966,3.66164,45.0746,0.000156447,4.11206,45.5052
280,0.00015955,3.66546,46.4079,0.000161031,4.10411,46.8387
288,0.000164134,3.66928,47.7412,0.0001656158,4.09616,48.1721
296,0.000168718,3.6731,49.0745,0.0001702,4.08836,49.5056
304,0.000173302,3.67677,50.4078,0.0001747848,4.08026,50.8391
312,0.000177886,3.68044,51.7411,0.0001793693,4.07277,52.1726
320,0.0001824696,3.68396,53.0743,0.0001839538,4.06512,53.5061
328,0.000187053,3.68747,54.4076,0.0001885383,4.05809,54.8395
336,0.000191637,3.69099,55.7409,0.0001931228,4.05105,56.173
344,0.000196221,3.69481,57.0742,0.000197707,4.04417,57.5065
352,0.000200805,3.69802,58.4075,0.000202292,4.03791,58.84
360,0.0002053889,3.70154,59.7408,0.000206876,4.03148,60.1734
368,0.000209973,3.70475,61.0741,0.000211461,4.02552,61.5069
376,0.000214557,3.70812,62.4074,0.000216045,4.01956,62.8404
384,0.00021914,3.71148,63.7407,0.00022063,4.01405,64.1739
392,0.000223724,3.71469,65.074,0.000225214,4.00824,65.5073
400,0.000228308,3.71759,66.4073,0.000229799,4.00289,66.8408
408,0.000232892,3.72111,67.7406,0.000234383,3.99724,68.1743
416,0.000237476,3.72417,69.0738,0.000238968,3.99189,69.5078
424,0.00024206,3.72738,70.4071,0.000243552,3.98653,70.8412
432,0.000246644,3.73029,71.7404,0.000248137,3.98134,72.1747
440,0.000251227,3.7335,73.0737,0.000252721,3.97553,73.5082
448,0.000255811,3.7364,74.407,0.000257306,3.97017,74.8417
456,0.000260395,3.73961,75.7403,0.00026189,3.96452,76.1751
464,0.000264979,3.74252,77.0736,0.000266475,3.95855,77.5086
472,0.000269563,3.74542,78.4069,0.0002710591,3.95274,78.8421
480,0.0002741467,3.74817,79.7402,0.000275644,3.94648,80.1756
488,0.000278731,3.75108,81.0735,0.000280228,3.94021,81.509
496,0.000283314,3.75398,82.4068,0.000284813,3.93379,82.8425
504,0.000287898,3.75658,83.74,0.000289397,3.92706,84.176
512,0.000292482,3.75964,85.0733,0.000293982,3.92048,85.5095
520,0.000297066,3.76255,86.4066,0.000298566,3.9136,86.8429
528,0.00030165,3.76545,87.7399,0.00030315,3.90672,88.1764
536,0.000306234,3.76836,89.0732,0.000307735,3.89969,89.5099
544,0.000310818,3.77126,90.4065,0.000312319,3.8925,90.8434
552,0.000315401,3.77386,91.7398,0.000316904,3.88547,92.1768
560,0.000319985,3.77707,93.0731,0.000321488,3.87844,93.5103
568,0.0003245692,3.77998,94.4064,0.000326073,3.87141,94.8438
576,0.000329153,3.78303,95.7397,0.000330657,3.86468,96.1772
584,0.000333737,3.78579,97.073,0.000335242,3.85795,97.5107
592,0.000338321,3.78884,98.4063,0.000339826,3.85138,98.8442
600,0.000342905,3.7919,99.7396,0.000344411,3.8448,100.178
608,0.000347489,3.79526,101.073,0.000348995,3.83853,101.511
616,0.000352072,3.79832,102.406,0.00035358,3.83272,102.845
624,0.0003566563,3.80153,103.739,0.0003581643,3.82676,104.178
632,0.00036124,3.80505,105.073,0.000362749,3.82141,105.512
640,0.000365824,3.80826,106.406,0.000367333,3.81606,106.845
648,0.000370408,3.81208,107.739,0.000371918,3.81086,108.179
656,0.000374992,3.81575,109.073,0.000376502,3.80612,109.512
664,0.000379576,3.81973,110.406,0.000381087,3.80138,110.845
672,0.000384159,3.82355,111.739,0.000385671,3.79695,112.179
680,0.000388743,3.82798,113.073,0.000390256,3.79282,113.512
688,0.000393327,3.83226,114.406,0.00039484,3.78884,114.846
696,0.000397911,3.83685,115.739,0.000399425,3.78456,116.179
704,0.000402495,3.84159,117.072,0.0004040091,3.78089,117.513
712,0.000407079,3.84664,118.406,0.000408594,3.77707,118.846
720,0.000411663,3.85168,119.739,0.000413178,3.7734,120.18
728,0.000416247,3.85703,121.072,0.000417763,3.77004,121.513
736,0.00042083,3.86284,122.406,0.000422347,3.76667,122.847
744,0.000425414,3.86835,123.739,0.000426931,3.76331,124.18
752,0.000429998,3.87446,125.072,0.000431516,3.75995,125.514
760,0.000434582,3.88058,126.405,0.0004361,3.75674,126.847
768,0.000439166,3.88685,127.739,0.000440685,3.75337,128.181
776,0.00044375,3.89342,129.072,0.000445269,3.75031,129.514
784,0.000448334,3.89969,130.405,0.000449854,3.7471,130.848
792,0.000452917,3.90642,131.739,0.000454438,3.74389,132.181
800,0.000457501,3.91284,133.072,0.000459023,3.74083,133.514
808,0.000462085,3.91957,134.405,0.000463607,3.73762,134.848
816,0.000466669,3.92599,135.739,0.000468192,3.73441,136.181
824,0.000471253,3.93256,137.072,0.000472776,3.7312,137.515
832,0.000475837,3.93914,138.405,0.000477361,3.72814,138.848
840,0.000480421,3.94541,139.738,0.000481945,3.72493,140.182
848,0.000485004,3.95198,141.072,0.00048653,3.72172,141.515
856,0.000489588,3.95794,142.405,0.000491114,3.71821,142.849
864,0.000494172,3.96436,143.738,0.000495698,3.71515,144.182
872,0.000498756,3.97017,145.072,0.000500283,3.71194,145.516
880,0.00050334,3.97598,146.405,0.000504867,3.70857,146.849
888,0.000507924,3.98179,147.738,0.000509452,3.70506,148.183
896,0.000512508,3.98745,149.071,0.000514036,3.70154,149.516
904,0.000517091,3.9928,150.405,0.000518621,3.69833,150.85
912,0.000521675,3.99846,151.738,0.000523205,3.69466,152.183
920,0.000526259,4.00366,153.071,0.0005277897,3.6913,153.516
928,0.000530843,4.00916,154.405,0.000532374,3.68778,154.85
936,0.000535427,4.01467,155.738,0.000536959,3.68426,156.183
944,0.0005400108,4.02017,157.071,0.000541543,3.68059,157.517
952,0.000544595,4.02537,158.405,0.000546128,3.67693,158.85
960,0.000549179,4.03087,159.738,0.000550712,3.6731,160.184
968,0.000553762,4.03653,161.071,0.000555296,3.66974,161.517
976,0.0005583463,4.04234,162.404,0.000559881,3.66592,162.851
984,0.00056293,4.04815,163.738,0.000564465,3.66194,164.184
992,0.000567514,4.05427,165.071,0.00056905,3.65812,165.518
1000,0.000572098,4.06023,166.404,0.000573634,3.65445,166.851
1008,0.000576682,4.0665,167.738,0.000578219,3.65047,168.185
1016,0.000581266,4.07322,169.071,0.000582803,3.64635,169.518
1024,0.00058585,4.0798,170.404,0.000587388,3.64222,170.852
1032,0.000590433,4.08668,171.737,0.0005919722,3.6384,172.185
1040,0.000595017,4.09386,173.071,0.000596557,3.63412,173.519
1048,0.000599601,4.1012,174.404,0.000601141,3.62983,174.852
1056,0.000604185,4.10808,175.737,0.000605726,3.62571,176.185
1064,0.000608769,4.11542,177.071,0.00061031,3.62127,177.519
1072,0.0006133527,4.12291,178.404,0.000614894,3.61699,178.852
1080,0.000617937,4.12995,179.737,0.000619479,3.61256,180.186
1088,0.00062252,4.13698,181.071,0.0006240634,3.60751,181.519
1096,0.000627104,4.14371,182.404,0.000628648,3.60308,182.853
1104,0.000631688,4.15059,183.737,0.0006332323,3.59819,184.186
1112,0.000636272,4.15686,185.07,0.000637817,3.59345,185.52
1120,0.000640856,4.16297,186.404,0.000642401,3.58794,186.853
1128,0.00064544,4.16878,187.737,0.000646986,3.58305,188.187
1136,0.000650024,4.17413,189.07,0.00065157,3.5777,189.52
1144,0.000654608,4.17903,190.404,0.000656155,3.57189,190.854
1152,0.000659191,4.18377,191.737,0.000660739,3.56592,192.187
1160,0.000663775,4.18805,193.07,0.000665323,3.56012,193.521
1168,0.000668359,4.19156,194.403,0.000669908,3.55369,194.854
1176,0.000672943,4.19477,195.737,0.000674492,3.54712,196.187
1184,0.000677527,4.19768,197.07,0.000679077,3.53978,197.521
1192,0.000682111,4.20013,198.403,0.0006836613,3.53168,198.854
1200,0.000686695,4.20303,199.737,0.000688246,3.52296,200.188
1208,0.000691278,4.20517,201.07,0.0006928302,3.51211,201.521
1216,0.000695862,4.20777,202.403,0.000697415,3.4988,202.855
1224,0.000700446,4.20991,203.737,0.0007019991,3.48061,204.188
1232,0.00070503,4.21236,205.07,0.000706584,3.45355,205.522
1240,0.000709614,4.2148,206.403,0.000711168,3.4115,206.855
1248,0.000714198,4.21756,207.736,0.000715752,3.34591,208.189
1256,0.000718782,4.22031,209.07,0.000720337,3.24714,209.522
1264,0.000723365,4.22321,210.403,0.000724921,3.10556,210.856
1272,0.000727949,4.22627,211.736,,,
1280,0.000732533,4.22979,213.07,,,
1288,0.000737117,4.23346,214.403,,,
1296,0.000741701,4.23789,215.736,,,
1304,0.000746285,4.24248,217.069,,,
1312,0.000750869,4.24752,218.403,,,
1320,0.000755452,4.25303,219.736,,,
1328,0.000760036,4.25945,221.069,,,
1336,0.00076462,4.26663,222.403,,,
1344,0.000769204,4.27413,223.736,,,
1352,0.000773788,4.28238,225.069,,,
1360,0.000778372,4.29171,226.402,,,
1368,0.000782936,4.30073,227.73,,,
1373,0.000784382,4.30058,228.151,,,